# %ECSV 0.9
# ---
# datatype:
# - {name: energy, unit: eV, datatype: float64}
# - {name: transmission, datatype: float64}
# meta: !!omap
# - {ORIGIN: 'http://henke.lbl.gov/optical_constants/filter2.html'}
# - {parameters: Si Density=2.33 Thickness=1. microns}
# - {description: 'Transmission through L1 support, assuming the support bars can be
#     treated like solid Si'}
# schema: astropy-2.0
energy transmission
    200.00      0.16181E-06
    223.60      0.18234E-05
    247.20      0.16629E-04
    270.80      0.10211E-03
    294.40      0.41647E-03
    318.00      0.13128E-02
    341.60      0.32949E-02
    365.20      0.69416E-02
    388.80      0.13813E-01
    412.40      0.24270E-01
    436.00      0.38598E-01
    459.60      0.56805E-01
    483.20      0.79532E-01
    506.80      0.10581    
    530.40      0.13484    
    554.00      0.16591    
    577.60      0.19834    
    601.20      0.23298    
    624.80      0.26850    
    648.40      0.30380    
    672.00      0.33849    
    695.60      0.37208    
    719.20      0.40288    
    742.80      0.43224    
    766.40      0.46032    
    790.00      0.48715    
    813.60      0.51389    
    837.20      0.53980    
    860.80      0.56426    
    884.40      0.58733    
    908.00      0.60967    
    931.60      0.63179    
    955.20      0.65255    
    978.80      0.67200    
    1002.4      0.69020    
    1026.0      0.70725    
    1049.6      0.72320    
    1073.2      0.73812    
    1096.8      0.75172    
    1120.4      0.76370    
    1144.0      0.77485    
    1167.6      0.78533    
    1191.2      0.79519    
    1214.8      0.80450    
    1238.4      0.81328    
    1262.0      0.82155    
    1285.6      0.82935    
    1309.2      0.83674    
    1332.8      0.84374    
    1356.4      0.85035    
    1380.0      0.85660    
    1403.6      0.86252    
    1427.2      0.86813    
    1450.8      0.87346    
    1474.4      0.87850    
    1498.0      0.88329    
    1521.6      0.88796    
    1545.2      0.89240    
    1568.8      0.89662    
    1592.4      0.90061    
    1616.0      0.90441    
    1639.6      0.90802    
    1663.2      0.91145    
    1686.8      0.91471    
    1710.4      0.91781    
    1734.0      0.92079    
    1757.6      0.92368    
    1781.2      0.92646    
    1804.8      0.92911    
    1828.4      0.93164    
    1852.0      0.46025    
    1875.6      0.47103    
    1899.2      0.48159    
    1922.8      0.49195    
    1946.4      0.50209    
    1970.0      0.51203    
    1993.6      0.52177    
    2017.2      0.53132    
    2040.8      0.54070    
    2064.4      0.54988    
    2088.0      0.55891    
    2111.6      0.56788    
    2135.2      0.57667    
    2158.8      0.58528    
    2182.4      0.59372    
    2206.0      0.60200    
    2229.6      0.61010    
    2253.2      0.61803    
    2276.8      0.62580    
    2300.4      0.63340    
    2324.0      0.64084    
    2347.6      0.64812    
    2371.2      0.65524    
    2394.8      0.66221    
    2418.4      0.66903    
    2442.0      0.67568    
    2465.6      0.68221    
    2489.2      0.68858    
    2512.8      0.69481    
    2536.4      0.70089    
    2560.0      0.70683    
    2583.6      0.71265    
    2607.2      0.71833    
    2630.8      0.72389    
    2654.4      0.72931    
    2678.0      0.73461    
    2701.6      0.73980    
    2725.2      0.74487    
    2748.8      0.74982    
    2772.4      0.75465    
    2796.0      0.75938    
    2819.6      0.76399    
    2843.2      0.76851    
    2866.8      0.77292    
    2890.4      0.77723    
    2914.0      0.78143    
    2937.6      0.78556    
    2961.2      0.78958    
    2984.8      0.79351    
    3008.4      0.79735    
    3032.0      0.80110    
    3055.6      0.80477    
    3079.2      0.80836    
    3102.8      0.81187    
    3126.4      0.81530    
    3150.0      0.81865    
    3173.6      0.82192    
    3197.2      0.82513    
    3220.8      0.82826    
    3244.4      0.83133    
    3268.0      0.83432    
    3291.6      0.83725    
    3315.2      0.84011    
    3338.8      0.84292    
    3362.4      0.84566    
    3386.0      0.84835    
    3409.6      0.85097    
    3433.2      0.85353    
    3456.8      0.85605    
    3480.4      0.85850    
    3504.0      0.86091    
    3527.6      0.86326    
    3551.2      0.86557    
    3574.8      0.86782    
    3598.4      0.87003    
    3622.0      0.87219    
    3645.6      0.87430    
    3669.2      0.87637    
    3692.8      0.87840    
    3716.4      0.88039    
    3740.0      0.88233    
    3763.6      0.88423    
    3787.2      0.88610    
    3810.8      0.88793    
    3834.4      0.88972    
    3858.0      0.89147    
    3881.6      0.89319    
    3905.2      0.89487    
    3928.8      0.89652    
    3952.4      0.89814    
    3976.0      0.89972    
    3999.6      0.90128    
    4023.2      0.90280    
    4046.8      0.90429    
    4070.4      0.90575    
    4094.0      0.90718    
    4117.6      0.90859    
    4141.2      0.90997    
    4164.8      0.91132    
    4188.4      0.91265    
    4212.0      0.91395    
    4235.6      0.91522    
    4259.2      0.91647    
    4282.8      0.91770    
    4306.4      0.91890    
    4330.0      0.92009    
    4353.6      0.92124    
    4377.2      0.92238    
    4400.8      0.92350    
    4424.4      0.92459    
    4448.0      0.92567    
    4471.6      0.92672    
    4495.2      0.92776    
    4518.8      0.92878    
    4542.4      0.92978    
    4566.0      0.93076    
    4589.6      0.93172    
    4613.2      0.93267    
    4636.8      0.93359    
    4660.4      0.93451    
    4684.0      0.93540    
    4707.6      0.93628    
    4731.2      0.93715    
    4754.8      0.93800    
    4778.4      0.93883    
    4802.0      0.93965    
    4825.6      0.94046    
    4849.2      0.94125    
    4872.8      0.94202    
    4896.4      0.94279    
    4920.0      0.94354    
    4943.6      0.94428    
    4967.2      0.94500    
    4990.8      0.94572    
    5014.4      0.94642    
    5038.0      0.94711    
    5061.6      0.94779    
    5085.2      0.94845    
    5108.8      0.94911    
    5132.4      0.94975    
    5156.0      0.95039    
    5179.6      0.95101    
    5203.2      0.95163    
    5226.8      0.95223    
    5250.4      0.95282    
    5274.0      0.95341    
    5297.6      0.95398    
    5321.2      0.95455    
    5344.8      0.95510    
    5368.4      0.95565    
    5392.0      0.95619    
    5415.6      0.95672    
    5439.2      0.95724    
    5462.8      0.95775    
    5486.4      0.95826    
    5510.0      0.95876    
    5533.6      0.95925    
    5557.2      0.95973    
    5580.8      0.96020    
    5604.4      0.96067    
    5628.0      0.96113    
    5651.6      0.96159    
    5675.2      0.96203    
    5698.8      0.96247    
    5722.4      0.96290    
    5746.0      0.96333    
    5769.6      0.96375    
    5793.2      0.96416    
    5816.8      0.96457    
    5840.4      0.96497    
    5864.0      0.96537    
    5887.6      0.96576    
    5911.2      0.96614    
    5934.8      0.96652    
    5958.4      0.96689    
    5982.0      0.96726    
    6005.6      0.96762    
    6029.2      0.96798    
    6052.8      0.96833    
    6076.4      0.96868    
    6100.0      0.96902    
    6123.6      0.96935    
    6147.2      0.96969    
    6170.8      0.97001    
    6194.4      0.97033    
    6218.0      0.97065    
    6241.6      0.97097    
    6265.2      0.97127    
    6288.8      0.97158    
    6312.4      0.97188    
    6336.0      0.97217    
    6359.6      0.97247    
    6383.2      0.97276    
    6406.8      0.97304    
    6430.4      0.97332    
    6454.0      0.97360    
    6477.6      0.97387    
    6501.2      0.97414    
    6524.8      0.97440    
    6548.4      0.97466    
    6572.0      0.97492    
    6595.6      0.97518    
    6619.2      0.97543    
    6642.8      0.97568    
    6666.4      0.97592    
    6690.0      0.97616    
    6713.6      0.97640    
    6737.2      0.97664    
    6760.8      0.97687    
    6784.4      0.97710    
    6808.0      0.97732    
    6831.6      0.97755    
    6855.2      0.97777    
    6878.8      0.97798    
    6902.4      0.97820    
    6926.0      0.97841    
    6949.6      0.97862    
    6973.2      0.97883    
    6996.8      0.97903    
    7020.4      0.97923    
    7044.0      0.97943    
    7067.6      0.97963    
    7091.2      0.97982    
    7114.8      0.98001    
    7138.4      0.98020    
    7162.0      0.98039    
    7185.6      0.98057    
    7209.2      0.98075    
    7232.8      0.98093    
    7256.4      0.98111    
    7280.0      0.98129    
    7303.6      0.98146    
    7327.2      0.98163    
    7350.8      0.98180    
    7374.4      0.98197    
    7398.0      0.98213    
    7421.6      0.98229    
    7445.2      0.98245    
    7468.8      0.98261    
    7492.4      0.98277    
    7516.0      0.98293    
    7539.6      0.98308    
    7563.2      0.98323    
    7586.8      0.98338    
    7610.4      0.98353    
    7634.0      0.98368    
    7657.6      0.98382    
    7681.2      0.98396    
    7704.8      0.98410    
    7728.4      0.98424    
    7752.0      0.98438    
    7775.6      0.98452    
    7799.2      0.98465    
    7822.8      0.98479    
    7846.4      0.98492    
    7870.0      0.98505    
    7893.6      0.98518    
    7917.2      0.98530    
    7940.8      0.98543    
    7964.4      0.98555    
    7988.0      0.98568    
    8011.6      0.98580    
    8035.2      0.98592    
    8058.8      0.98604    
    8082.4      0.98616    
    8106.0      0.98627    
    8129.6      0.98639    
    8153.2      0.98650    
    8176.8      0.98661    
    8200.4      0.98672    
    8224.0      0.98683    
    8247.6      0.98694    
    8271.2      0.98705    
    8294.8      0.98716    
    8318.4      0.98726    
    8342.0      0.98737    
    8365.6      0.98747    
    8389.2      0.98757    
    8412.8      0.98767    
    8436.4      0.98777    
    8460.0      0.98787    
    8483.6      0.98797    
    8507.2      0.98807    
    8530.8      0.98816    
    8554.4      0.98826    
    8578.0      0.98835    
    8601.6      0.98844    
    8625.2      0.98853    
    8648.8      0.98862    
    8672.4      0.98871    
    8696.0      0.98880    
    8719.6      0.98889    
    8743.2      0.98898    
    8766.8      0.98906    
    8790.4      0.98915    
    8814.0      0.98923    
    8837.6      0.98932    
    8861.2      0.98940    
    8884.8      0.98948    
    8908.4      0.98956    
    8932.0      0.98964    
    8955.6      0.98972    
    8979.2      0.98980    
    9002.8      0.98988    
    9026.4      0.98995    
    9050.0      0.99003    
    9073.6      0.99010    
    9097.2      0.99018    
    9120.8      0.99025    
    9144.4      0.99033    
    9168.0      0.99040    
    9191.6      0.99047    
    9215.2      0.99054    
    9238.8      0.99061    
    9262.4      0.99068    
    9286.0      0.99075    
    9309.6      0.99082    
    9333.2      0.99089    
    9356.8      0.99095    
    9380.4      0.99102    
    9404.0      0.99108    
    9427.6      0.99115    
    9451.2      0.99121    
    9474.8      0.99128    
    9498.4      0.99134    
    9522.0      0.99140    
    9545.6      0.99146    
    9569.2      0.99153    
    9592.8      0.99159    
    9616.4      0.99165    
    9640.0      0.99171    
    9663.6      0.99177    
    9687.2      0.99182    
    9710.8      0.99188    
    9734.4      0.99194    
    9758.0      0.99200    
    9781.6      0.99205    
    9805.2      0.99211    
    9828.8      0.99216    
    9852.4      0.99222    
    9876.0      0.99227    
    9899.6      0.99233    
    9923.2      0.99238    
    9946.8      0.99243    
    9970.4      0.99248    
    9994.0      0.99254    
    10018.      0.99259    
    10041.      0.99264    
    10065.      0.99269    
    10088.      0.99274    
    10112.      0.99279    
    10136.      0.99284    
    10159.      0.99289    
    10183.      0.99293    
    10206.      0.99298    
    10230.      0.99303    
    10254.      0.99308    
    10277.      0.99312    
    10301.      0.99317    
    10324.      0.99321    
    10348.      0.99326    
    10372.      0.99330    
    10395.      0.99335    
    10419.      0.99339    
    10442.      0.99344    
    10466.      0.99348    
    10490.      0.99352    
    10513.      0.99357    
    10537.      0.99361    
    10560.      0.99365    
    10584.      0.99369    
    10608.      0.99373    
    10631.      0.99377    
    10655.      0.99381    
    10678.      0.99385    
    10702.      0.99389    
    10726.      0.99393    
    10749.      0.99397    
    10773.      0.99401    
    10796.      0.99405    
    10820.      0.99409    
    10844.      0.99412    
    10867.      0.99416    
    10891.      0.99420    
    10914.      0.99423    
    10938.      0.99427    
    10962.      0.99431    
    10985.      0.99434    
    11009.      0.99438    
    11032.      0.99441    
    11056.      0.99445    
    11080.      0.99448    
    11103.      0.99452    
    11127.      0.99455    
    11150.      0.99459    
    11174.      0.99462    
    11198.      0.99465    
    11221.      0.99469    
    11245.      0.99472    
    11268.      0.99475    
    11292.      0.99478    
    11316.      0.99481    
    11339.      0.99485    
    11363.      0.99488    
    11386.      0.99491    
    11410.      0.99494    
    11434.      0.99497    
    11457.      0.99500    
    11481.      0.99503    
    11504.      0.99506    
    11528.      0.99509    
    11552.      0.99512    
    11575.      0.99515    
    11599.      0.99518    
    11622.      0.99521    
    11646.      0.99524    
    11670.      0.99526    
    11693.      0.99529    
    11717.      0.99532    
    11740.      0.99535    
    11764.      0.99538    
    11788.      0.99540    
    11811.      0.99543    
    11835.      0.99546    
    11858.      0.99548    
    11882.      0.99551    
    11906.      0.99554    
    11929.      0.99556    
    11953.      0.99559    
    11976.      0.99561    
    12000.      0.99564    
